aX,aY,aZ,gX,gY,gZ

0.364,0.241,1.091,-53.284,-70.129,48.645

0.064,0.182,1.029,4.578,3.357,36.194

0.137,0.178,0.931,32.837,31.494,-4.517

0.152,0.244,0.948,30.884,29.541,-6.836

0.121,0.355,0.973,27.222,33.630,-5.920

-0.114,0.513,1.040,33.203,50.903,7.568

-0.139,0.463,1.064,71.228,81.970,73.364

-0.034,0.092,1.028,111.206,104.797,160.034

0.427,-0.191,1.034,93.994,99.731,178.528

0.243,0.059,1.021,77.271,44.556,86.853

0.143,0.160,1.056,127.441,25.269,10.986

0.244,0.170,1.026,144.226,26.489,-3.296

0.314,0.215,1.045,150.696,24.292,-12.817

0.319,0.141,1.053,167.053,32.104,-25.879

0.276,0.020,1.023,200.012,45.044,-34.546

0.161,-0.091,1.003,235.229,65.002,-35.095

0.100,-0.162,0.958,255.920,83.740,-20.203

0.105,-0.159,0.853,257.996,90.454,-1.770

0.110,-0.068,0.993,242.554,79.895,6.409

0.234,-0.150,0.844,232.056,71.838,-0.244

0.250,-0.249,0.858,231.201,67.688,-23.804

0.249,-0.349,0.825,223.755,65.186,-40.466

0.291,-0.386,0.833,213.196,66.528,-45.227

0.364,-0.454,0.701,199.707,62.195,-43.823

0.377,-0.518,0.628,131.897,39.185,-37.231

0.371,-0.452,0.625,75.867,6.836,-0.122

0.426,-0.462,0.578,42.175,-3.296,38.940

0.473,-0.543,0.599,32.959,17.883,46.265

0.480,-0.559,0.663,15.869,40.222,49.194

0.412,-0.466,0.761,-11.353,49.866,64.697

0.363,-0.363,0.797,-22.644,57.190,82.886

0.339,-0.257,0.831,-20.203,62.866,90.210

0.393,-0.170,0.857,-21.362,63.538,78.552

0.461,-0.179,0.830,-23.560,64.331,57.007

0.480,-0.249,0.821,-10.986,65.186,25.757

0.437,-0.325,0.830,5.981,61.035,-3.296

0.408,-0.385,0.833,16.174,54.810,-14.771

0.374,-0.449,0.818,16.907,50.049,-12.512

0.361,-0.503,0.807,10.742,47.729,-11.047

0.397,-0.516,0.805,2.502,47.302,-13.367

0.461,-0.495,0.808,-3.967,46.570,-15.686

0.541,-0.441,0.833,-11.841,45.410,-15.991

0.572,-0.376,0.905,-16.663,45.288,-14.038

0.528,-0.306,0.950,-15.015,47.974,-11.475

0.460,-0.283,0.974,-4.761,49.622,-5.798

0.439,-0.342,0.910,-0.244,44.983,0.122

0.434,-0.380,0.891,0.854,34.912,3.784

0.455,-0.408,0.900,7.568,25.452,8.240

0.448,-0.427,0.924,20.020,18.005,16.052

0.423,-0.429,0.929,30.334,10.315,20.996

0.422,-0.402,0.915,36.499,1.221,22.522

0.458,-0.387,0.902,44.495,-5.127,21.423

0.502,-0.400,0.903,57.495,-5.676,19.348

0.539,-0.432,0.929,69.580,-1.404,19.897

0.576,-0.482,0.949,79.895,8.362,22.705

0.605,-0.496,1.005,87.891,21.484,28.687

0.613,-0.507,0.989,94.543,32.410,34.668

0.594,-0.489,1.026,97.229,35.828,37.354

0.558,-0.444,1.017,94.360,34.058,39.856

0.556,-0.426,0.991,79.224,24.841,40.771

0.532,-0.301,0.951,61.707,7.446,44.006

0.502,-0.442,0.805,65.308,-6.897,55.542

0.475,-0.439,0.760,51.636,-10.010,61.035

0.457,-0.427,0.779,50.171,4.944,53.467

0.446,-0.398,0.837,60.669,21.606,37.720

0.501,-0.376,0.782,74.585,32.715,18.066

0.496,-0.396,0.706,98.267,38.574,3.540

0.469,-0.417,0.704,114.685,46.448,-3.235

0.489,-0.392,0.680,109.253,59.570,-1.343

0.482,-0.387,0.589,103.699,79.041,1.953

0.441,-0.370,0.605,109.985,92.896,8.972

0.510,-0.441,0.558,121.521,97.778,22.888

0.591,-0.521,0.479,124.817,82.275,44.434

0.668,-0.614,0.575,125.916,57.251,58.533

0.758,-0.697,0.515,120.117,49.744,57.739

0.819,-0.773,0.533,123.230,52.734,52.002

0.882,-0.703,0.568,131.836,65.369,49.316

0.932,-0.655,0.509,156.616,88.379,44.617

0.890,-0.516,0.529,192.322,114.502,40.527

0.715,-0.343,0.669,239.868,146.545,39.673

0.616,-0.353,0.464,313.904,183.777,48.828

0.660,-0.396,0.286,373.291,202.148,90.393

0.697,-0.336,0.082,390.747,196.594,148.437

0.692,-0.423,-0.073,404.968,174.377,204.468

0.746,-0.486,-0.160,424.683,154.419,240.173

0.868,-0.558,-0.187,438.293,145.203,249.512

0.966,-0.550,-0.185,421.814,117.737,243.469

0.902,-0.439,-0.248,401.123,84.839,235.291

0.990,-0.426,-0.289,405.273,83.557,228.027

1.100,-0.394,-0.304,432.983,105.347,219.177

0.999,-0.547,-0.281,470.154,129.028,191.650

0.838,-0.725,-0.314,502.014,140.442,146.301

0.762,-0.706,-0.357,512.451,135.925,74.585

0.773,-0.734,-0.411,509.766,122.620,-1.709

0.758,-0.718,-0.565,470.581,101.929,-54.138

0.920,-0.501,-0.506,334.595,78.064,-73.181

0.862,-0.212,-0.576,225.159,46.448,-92.407

0.791,-0.056,-0.562,134.399,-5.493,-95.581

0.896,0.003,-0.472,37.048,-61.218,-74.280

0.926,-0.152,-0.394,-30.762,-96.802,-44.800

0.789,-0.554,-0.150,-92.346,-100.952,14.343

0.688,0.094,-0.284,-190.063,-60.242,115.295

0.646,0.333,-0.342,-158.752,-32.288,119.202

0.519,0.612,-0.381,-91.187,-18.127,62.378

0.640,0.344,-0.395,-27.588,-3.479,-7.263

0.759,0.041,-0.554,12.329,5.310,-56.152

0.634,0.015,-0.707,-4.700,-4.395,-78.125

0.804,-0.157,-0.737,-36.743,-12.024,-83.008

0.917,-0.450,-0.464,-37.170,-11.414,-94.116

-0.124,-1.603,-0.231,47.974,-11.230,-69.336

0.531,-1.475,-0.650,155.273,-12.695,117.920

1.341,-0.257,-0.277,15.259,-25.879,259.277

0.503,-0.939,-0.099,-208.008,-133.606,220.398

0.621,0.379,0.262,-250.793,-244.202,287.903

0.519,2.144,-0.157,-58.044,-175.171,304.871

0.609,1.675,-0.538,117.920,-95.764,62.012

0.612,0.305,-0.122,49.438,-121.399,-103.027

1.523,-0.516,0.157,18.066,-115.234,-23.865

2.165,-0.566,-0.099,82.031,-88.989,116.272



0.872,1.383,0.418,-23.926,-138.977,65.002

0.873,1.429,0.526,-30.396,-133.301,48.218

0.916,1.499,0.513,-36.743,-118.164,37.231

0.872,1.661,0.386,-45.715,-101.563,26.123

0.784,1.654,0.428,-64.331,-96.619,6.897

0.695,1.748,0.149,-94.543,-104.797,-16.663

0.740,1.696,0.196,-86.670,-124.817,-43.213

0.752,1.720,0.224,-81.909,-151.489,-67.383

0.797,1.730,0.371,-78.613,-170.715,-87.891

0.592,1.695,0.231,-73.242,-175.354,-109.192

0.505,1.481,0.344,-55.542,-179.749,-135.803

0.362,1.156,0.469,-47.546,-175.720,-161.011

0.043,0.850,0.561,-62.622,-156.433,-173.035

-0.328,0.441,0.677,-89.539,-131.409,-177.673

-0.699,-0.033,0.828,-123.047,-108.521,-180.298

-1.006,-0.522,1.074,-159.302,-92.590,-183.777

-1.452,-1.012,1.555,-183.960,-90.271,-186.157

-1.846,-1.731,1.784,-182.251,-104.919,-185.852

-1.917,-2.264,1.930,-167.236,-141.663,-170.166

-1.571,-2.421,2.070,-139.160,-202.148,-137.756

-1.052,-2.393,2.059,-79.773,-267.822,-114.868

-0.552,-2.238,2.057,-14.832,-307.739,-116.516

0.089,-2.102,2.046,49.500,-290.833,-130.737

0.674,-1.762,1.956,104.919,-225.159,-148.071

1.004,-1.593,1.545,117.798,-137.024,-164.307

1.241,-1.390,1.289,98.389,-64.453,-147.644

0.976,-0.823,1.086,35.645,-16.296,-105.408

0.721,-0.374,0.979,41.443,74.341,-42.175

0.224,-0.669,1.080,66.284,155.701,30.945

-0.225,-0.686,1.255,35.400,180.908,76.477

-0.539,-0.618,1.314,6.653,153.809,100.403

-0.745,-0.415,1.184,8.301,98.938,117.554

-0.808,-0.162,1.029,12.756,33.630,141.052

-0.712,-0.038,0.913,12.329,-23.193,165.222

-0.606,-0.042,0.914,10.742,-62.805,177.002

-0.511,-0.211,1.050,4.089,-82.703,172.852

-0.422,-0.349,1.202,-13.000,-82.642,165.222

-0.340,-0.350,1.314,-42.297,-69.458,164.429

-0.339,-0.206,1.414,-67.322,-46.814,171.143

-0.358,-0.025,1.429,-69.580,-12.085,180.786

-0.359,0.077,1.442,-56.091,29.541,181.335

-0.377,0.106,1.447,-30.823,67.200,167.786

-0.351,0.220,1.232,10.986,98.389,151.306

-0.240,0.280,1.073,46.143,117.798,127.808

-0.072,0.307,0.952,72.449,126.282,100.098

0.060,0.312,0.868,91.125,129.211,82.031

0.199,0.299,0.907,95.398,124.512,72.021

0.356,0.231,0.860,91.736,115.967,67.810

0.400,0.236,0.955,84.351,106.079,68.848

0.435,0.273,1.050,73.669,99.792,73.303

0.455,0.323,1.089,65.002,97.778,81.360

0.417,0.383,1.074,56.030,95.947,88.135

0.356,0.406,1.052,49.622,94.482,88.379

0.316,0.481,1.033,54.077,92.407,85.083

0.499,0.432,0.782,70.374,87.952,78.064

0.555,0.551,0.651,88.501,77.759,74.097

0.639,0.530,0.642,93.506,62.927,71.838

0.661,0.545,0.645,87.524,61.340,61.035

0.628,0.521,0.747,74.158,63.049,49.316

0.588,0.501,0.726,63.293,68.970,41.199

0.609,0.428,0.727,56.580,68.970,35.706

0.627,0.395,0.667,47.974,64.880,33.813

0.632,0.393,0.665,37.842,56.213,38.818

0.638,0.380,0.693,36.194,45.410,49.011

0.616,0.353,0.671,42.969,34.119,57.068

0.635,0.383,0.600,53.101,22.461,58.716

0.636,0.480,0.579,55.725,13.000,57.373

0.639,0.538,0.576,60.913,4.883,58.289

0.615,0.519,0.623,62.378,-1.099,56.091

0.595,0.483,0.685,54.504,-2.075,47.363

0.584,0.416,0.754,47.607,2.319,39.978

0.610,0.360,0.782,42.725,9.033,35.339

0.633,0.350,0.814,37.231,15.625,32.959

0.641,0.335,0.818,34.729,19.531,35.156

0.631,0.329,0.828,37.231,18.127,41.260

0.633,0.359,0.766,41.870,12.512,45.715

0.635,0.438,0.734,42.236,7.263,45.898

0.595,0.470,0.699,45.654,1.526,44.617

0.550,0.447,0.705,46.265,-7.629,41.687

0.536,0.384,0.722,51.331,-19.043,40.344

0.533,0.333,0.762,54.321,-30.334,39.185

0.542,0.306,0.821,45.288,-36.804,32.593

0.566,0.312,0.857,44.617,-37.964,31.189

0.578,0.356,0.908,45.105,-34.790,34.424

0.570,0.401,0.952,46.753,-29.480,38.574

0.559,0.475,0.959,49.133,-20.203,42.786

0.530,0.515,0.955,50.842,-7.629,46.509

0.509,0.531,0.942,52.307,4.761,49.683

0.494,0.566,0.908,49.683,14.648,51.636

0.450,0.594,0.888,43.701,20.386,52.368

0.412,0.600,0.860,34.912,21.667,52.307

0.385,0.622,0.833,22.522,19.897,50.537

0.381,0.630,0.777,9.460,16.541,47.058

0.350,0.650,0.741,-2.136,13.428,43.030

0.344,0.664,0.709,-13.245,10.376,37.903

0.331,0.654,0.695,-23.682,5.371,32.043

0.295,0.645,0.702,-29.358,1.160,27.405

0.259,0.637,0.698,-30.945,-3.235,23.560

0.228,0.642,0.684,-27.832,-9.094,20.203

0.226,0.667,0.668,-24.170,-16.663,15.259

0.227,0.689,0.688,-22.400,-25.024,8.362

0.221,0.696,0.716,-20.935,-32.471,2.625

0.228,0.710,0.744,-19.531,-39.551,-1.038

0.232,0.737,0.765,-20.386,-45.410,-4.028

0.226,0.771,0.772,-22.766,-49.377,-6.470

0.214,0.806,0.786,-24.658,-51.147,-8.972

0.193,0.853,0.810,-27.161,-49.805,-12.024

0.160,0.895,0.825,-27.588,-45.227,-13.794

0.122,0.981,0.837,-25.452,-37.842,-14.099

0.082,1.080,0.842,-18.738,-25.146,-13.611

0.059,1.169,0.844,-4.150,-8.606,-13.489

0.052,1.271,0.839,12.817,8.484,-15.808

0.073,1.394,0.825,28.809,25.574,-20.020

0.096,1.519,0.812,42.603,41.260,-24.963

0.092,1.675,0.832,49.438,51.514,-30.640

0.103,1.845,0.843,47.607,55.054,-37.720

0.106,2.021,0.840,41.565,54.138,-47.241

0.086,2.229,0.829,32.593,49.866,-59.448

0.107,2.437,0.817,27.405,43.823,-74.036



0.234,2.884,0.875,41.504,28.992,-109.680

0.207,2.935,0.934,65.247,24.902,-134.277

0.087,2.721,0.996,83.740,30.762,-174.561

-0.002,2.269,0.990,76.416,47.668,-230.286

-0.082,1.591,0.856,42.236,65.369,-284.729

-0.179,0.922,0.812,-16.296,72.754,-324.585

-0.374,0.274,0.783,-99.365,63.354,-346.313

-0.731,-0.418,0.797,-184.448,43.579,-342.529

-1.163,-1.297,0.703,-247.437,22.156,-306.885

-1.790,-2.285,0.646,-261.169,-7.568,-246.521

-2.295,-3.417,0.324,-206.421,-36.316,-194.092

-2.305,-4.000,-0.045,-116.699,-53.650,-186.829

-2.037,-4.000,-0.033,-54.871,-85.022,-217.285

-1.294,-4.000,0.280,9.888,-146.545,-271.484

-0.425,-4.000,0.928,75.439,-222.046,-310.242

0.559,-4.000,1.983,106.384,-270.325,-283.936

1.574,-4.000,3.016,103.638,-262.451,-203.857

2.144,-3.522,2.992,122.437,-200.562,-107.361

1.923,-2.517,2.429,138.550,-94.666,10.376

1.060,-1.942,1.807,89.050,29.175,138.733

0.134,-1.836,1.763,3.784,110.046,225.403

-0.649,-1.812,1.655,-40.527,142.944,252.808

-1.129,-1.567,1.403,-14.221,136.597,245.300

-1.111,-1.219,1.035,47.791,111.450,231.995

-0.887,-0.897,0.720,82.153,84.839,220.825

-0.655,-0.693,0.593,73.181,55.176,204.590

-0.484,-0.639,0.586,52.673,28.809,184.753

-0.354,-0.736,0.666,47.852,10.925,167.114

-0.200,-0.719,0.777,52.612,-0.793,157.166

-0.003,-0.617,0.889,56.030,-10.071,153.870

0.180,-0.467,1.000,60.364,-13.916,153.625

0.338,-0.343,1.092,63.538,-9.033,153.870

0.465,-0.268,1.133,62.378,2.869,155.273

0.508,-0.186,1.093,51.819,16.357,156.738

0.497,-0.099,1.007,32.288,26.001,158.936

0.448,-0.099,0.885,9.460,28.625,162.903

0.388,-0.052,0.807,-24.658,22.278,164.429

0.328,-0.024,0.707,-36.987,9.399,161.377

0.275,0.093,0.616,-41.138,-4.517,153.381

0.257,0.210,0.552,-30.151,-18.494,142.639

0.246,0.322,0.543,-18.494,-29.236,128.113

0.269,0.314,0.562,-6.470,-33.203,112.244

0.300,0.319,0.620,-2.625,-32.471,98.389

0.327,0.328,0.715,-2.319,-28.931,89.233

0.326,0.360,0.758,-1.038,-25.513,86.792

0.328,0.457,0.796,-5.432,-23.071,87.158

0.317,0.505,0.838,-4.883,-22.461,86.121

0.327,0.528,0.880,-6.348,-22.522,82.642

0.366,0.563,0.902,-9.888,-20.508,77.637

0.398,0.618,0.883,-10.925,-17.334,74.890

0.415,0.632,0.868,-8.972,-13.611,74.646

0.404,0.615,0.877,-8.484,-9.094,74.341

0.390,0.603,0.861,-9.094,-4.822,72.998

0.388,0.607,0.852,-9.583,-1.709,71.777

0.399,0.615,0.829,-10.559,1.099,70.740

0.407,0.622,0.795,-10.559,2.869,69.641

0.387,0.639,0.781,-7.629,3.479,68.787

0.340,0.651,0.790,-2.197,3.174,69.641

0.284,0.650,0.812,5.615,1.099,70.251

0.227,0.661,0.844,13.000,-1.953,68.726

0.180,0.671,0.891,17.578,-5.371,65.308

0.151,0.668,0.953,20.142,-8.667,61.096

0.132,0.685,1.003,18.982,-11.780,57.739

0.109,0.720,1.030,18.005,-13.306,54.138

0.107,0.713,1.059,21.851,-10.620,49.194

0.121,0.736,1.079,19.470,-8.362,43.640

0.124,0.708,1.069,16.541,-5.493,38.513

0.148,0.735,1.058,8.484,-2.991,36.011

0.172,0.739,1.028,1.221,1.099,33.936

0.183,0.705,0.989,-7.996,4.028,30.151

0.188,0.679,0.967,-22.583,4.822,24.048

0.178,0.568,0.914,-28.442,5.005,17.212

0.184,0.542,0.868,-36.865,2.808,10.742

0.215,0.519,0.835,-47.119,-0.122,3.296

0.222,0.457,0.811,-42.297,-4.333,-4.395

0.241,0.413,0.781,-35.400,-8.301,-10.193

0.279,0.395,0.763,-25.208,-11.780,-13.245

0.327,0.387,0.773,-17.151,-14.526,-12.573

0.363,0.398,0.772,-11.841,-15.442,-8.667

0.361,0.412,0.792,-8.301,-13.611,-4.028

0.356,0.413,0.802,-6.958,-9.460,-1.648

0.357,0.432,0.801,-8.606,-4.761,-1.099

0.352,0.449,0.790,-9.033,0.366,-1.831

0.340,0.446,0.772,-6.653,4.822,-2.625

0.337,0.446,0.754,-3.174,6.958,-3.784

0.327,0.456,0.736,0.061,5.737,-5.432

0.317,0.461,0.734,4.272,2.747,-7.629

0.319,0.468,0.745,7.996,-0.671,-9.216

0.306,0.503,0.768,10.803,-4.333,-9.399

0.276,0.546,0.781,15.076,-7.019,-9.277

0.244,0.588,0.803,19.836,-8.179,-10.132

0.228,0.616,0.831,23.254,-8.179,-12.817

0.219,0.646,0.868,24.231,-8.118,-17.029

0.207,0.679,0.902,23.621,-7.446,-20.203

0.211,0.708,0.926,22.949,-5.615,-21.790

0.219,0.740,0.947,21.301,-2.808,-23.376

0.206,0.793,0.951,19.531,1.831,-23.804

0.177,0.846,0.939,22.705,9.094,-22.949

0.141,0.908,0.934,29.907,17.883,-23.315

0.126,0.998,0.912,38.147,26.367,-24.597

0.143,1.096,0.884,48.157,32.410,-27.344

0.184,1.197,0.854,56.152,34.302,-32.593

0.203,1.300,0.826,59.570,33.508,-39.612

0.218,1.372,0.805,58.350,30.945,-47.974

0.215,1.437,0.790,52.185,25.757,-58.960

0.203,1.492,0.776,46.509,22.278,-71.716

0.173,1.542,0.790,45.105,20.081,-85.754

0.156,1.613,0.824,49.011,18.433,-99.487

0.174,1.722,0.841,58.228,17.334,-112.244

0.210,1.844,0.874,70.313,17.395,-125.854

0.276,1.954,0.917,83.984,20.203,-140.320

0.315,2.084,0.980,91.980,24.414,-153.503

0.210,2.169,1.091,92.590,34.546,-164.917

0.053,2.085,1.177,85.938,55.908,-176.636

-0.122,1.820,1.228,59.692,85.754,-195.435

-0.315,1.361,1.216,1.526,113.831,-221.436

-0.551,0.761,1.165,-88.684,130.005,-246.155

-1.001,0.025,0.992,-193.115,120.544,-264.221

-1.707,-0.959,0.848,-283.813,79.163,-277.527



-2.811,-3.988,0.864,-368.408,-78.125,-320.374

-2.439,-4.000,0.715,-387.085,-221.008,-337.219

-1.670,-4.000,0.618,-324.951,-389.465,-312.988

-0.783,-4.000,0.951,-149.780,-468.628,-259.521

0.074,-4.000,1.847,23.926,-401.489,-205.688

0.995,-4.000,2.698,156.189,-235.046,-161.438

1.876,-4.000,2.908,250.122,-59.509,-127.869

2.042,-3.286,2.471,281.128,66.956,-81.177

1.691,-2.501,2.093,230.225,136.963,4.272

1.005,-1.991,1.795,115.601,160.156,122.864

0.079,-1.787,1.701,-4.272,149.231,223.328

-0.720,-1.663,1.552,-67.993,126.831,262.451

-1.112,-1.396,1.254,-79.590,97.046,255.310

-1.114,-0.992,0.916,-63.049,63.049,233.032

-0.945,-0.648,0.708,-49.683,27.893,208.618

-0.752,-0.492,0.647,-51.147,-0.366,182.556

-0.642,-0.519,0.698,-53.589,-14.709,154.968

-0.566,-0.605,0.766,-44.739,-19.043,127.136

-0.439,-0.630,0.780,-27.405,-15.686,101.746

-0.272,-0.690,0.825,-5.859,-10.254,83.252

-0.069,-0.795,0.921,18.799,-5.249,77.698

0.151,-0.798,1.009,36.743,-2.380,88.135

0.290,-0.719,1.087,51.208,-1.709,106.750

0.335,-0.654,1.107,64.758,-0.122,126.770

0.326,-0.580,1.068,67.383,5.798,145.447

0.274,-0.468,0.994,57.495,16.724,158.997

0.190,-0.368,0.926,45.715,28.015,164.185

0.117,-0.274,0.894,40.527,35.645,160.278

0.080,-0.241,0.847,50.171,36.926,149.414

0.095,-0.038,0.859,39.307,29.602,136.047

0.116,0.072,0.854,43.213,15.015,122.437

0.211,0.164,0.887,64.026,-5.371,112.854

0.263,0.298,0.894,70.251,-21.912,102.112

0.291,0.453,0.930,69.031,-28.809,89.722

0.318,0.505,0.980,67.383,-27.039,78.369

0.368,0.566,1.051,53.040,-18.494,67.078

0.375,0.553,1.086,43.701,-9.033,56.213

0.345,0.539,1.130,30.334,0.305,49.438

0.353,0.543,1.123,17.395,11.047,45.959

0.410,0.583,1.067,10.925,20.386,45.654

0.446,0.648,0.994,5.493,27.100,47.424

0.461,0.715,0.937,-1.282,32.898,48.889

0.498,0.783,0.865,-5.493,38.452,49.866

0.514,0.857,0.796,-10.437,43.152,51.086

0.512,0.914,0.744,-18.677,46.265,52.979

0.497,0.923,0.711,-29.846,47.424,54.565

0.449,0.915,0.692,-39.368,47.241,55.969

0.394,0.904,0.681,-42.969,45.776,55.359

0.385,0.882,0.649,-43.762,41.565,51.086

0.379,0.876,0.615,-42.664,35.034,46.265

0.344,0.867,0.597,-39.185,26.245,43.335

0.303,0.834,0.639,-33.936,16.113,40.283

0.279,0.798,0.691,-30.334,5.981,35.339

0.266,0.743,0.739,-30.212,-6.958,27.771

0.278,0.700,0.777,-35.156,-21.545,19.165

0.297,0.651,0.814,-42.725,-33.447,11.658

0.310,0.587,0.849,-49.622,-41.382,5.920

0.319,0.529,0.880,-56.641,-45.532,1.282

0.332,0.485,0.896,-62.439,-45.410,-2.747

0.346,0.446,0.899,-65.247,-41.931,-5.737

0.364,0.423,0.882,-64.209,-35.706,-7.019

0.351,0.380,0.856,-61.340,-28.992,-7.690

0.374,0.374,0.822,-58.838,-23.315,-8.484

0.360,0.290,0.777,-42.175,-22.095,-8.545

0.372,0.339,0.767,-49.072,-21.545,-8.972

0.377,0.320,0.753,-40.161,-22.095,-9.949

0.378,0.295,0.771,-24.048,-23.437,-9.705

0.385,0.294,0.788,-12.451,-23.315,-8.179

0.383,0.303,0.820,-4.150,-21.973,-6.531

0.386,0.305,0.847,0.610,-20.264,-5.310

0.398,0.327,0.868,1.770,-18.127,-3.540

0.407,0.373,0.883,-0.061,-14.526,0.122

0.414,0.421,0.901,-2.075,-9.949,5.249

0.415,0.478,0.902,-4.395,-4.883,9.705

0.399,0.513,0.886,-4.211,-0.183,12.573

0.381,0.528,0.881,-2.686,3.479,13.550

0.347,0.521,0.865,-1.526,5.859,12.085

0.315,0.515,0.844,-1.526,5.005,8.667

0.303,0.515,0.830,-3.662,2.014,4.456

0.295,0.521,0.820,-7.019,-3.113,0.427

0.275,0.531,0.821,-9.338,-9.888,-3.235

0.259,0.549,0.822,-9.705,-16.663,-7.080

0.247,0.572,0.831,-8.240,-22.156,-10.864

0.236,0.602,0.844,-5.310,-26.123,-13.794

0.256,0.638,0.857,0.610,-27.710,-15.625

0.270,0.669,0.866,5.432,-25.940,-16.418

0.262,0.711,0.884,9.766,-21.301,-14.099

0.255,0.761,0.895,13.916,-12.939,-10.193

0.251,0.812,0.881,17.212,-1.526,-6.165

0.235,0.852,0.863,21.240,9.888,-4.333

0.197,0.891,0.857,23.865,20.142,-4.395

0.170,0.899,0.841,26.062,26.978,-6.226

0.143,0.917,0.825,29.297,29.297,-9.033

0.143,0.946,0.810,33.142,27.161,-13.794

0.167,1.000,0.786,35.950,20.935,-20.996

0.185,1.079,0.772,38.574,13.794,-28.564

0.197,1.182,0.771,43.579,9.216,-35.339

0.214,1.307,0.788,52.429,8.301,-42.419

0.218,1.454,0.799,65.491,10.132,-51.270

0.224,1.614,0.831,80.994,12.146,-63.110

0.263,1.780,0.925,96.375,14.099,-75.867

0.385,1.986,1.022,108.582,16.785,-84.656

0.448,2.220,1.106,116.821,18.250,-87.952

0.446,2.405,1.237,118.713,19.897,-91.064

0.410,2.468,1.345,108.521,27.893,-104.248

0.301,2.309,1.385,87.463,48.645,-132.324

0.131,1.923,1.283,46.509,75.684,-170.654

-0.035,1.447,1.084,-13.916,99.854,-206.421

-0.281,0.836,0.943,-86.060,108.643,-232.361

-0.660,0.101,0.793,-159.363,94.604,-246.643

-1.197,-0.780,0.593,-219.177,58.105,-246.887

-1.731,-1.790,0.331,-252.136,-0.488,-236.877

-2.098,-2.852,0.215,-251.587,-81.726,-230.652

-2.190,-3.495,0.151,-222.900,-165.955,-242.065

-1.995,-3.787,0.189,-156.006,-221.924,-260.071

-1.537,-4.000,0.507,-58.899,-241.394,-283.875

-0.841,-4.000,1.229,23.743,-233.276,-303.772

-0.037,-4.000,2.053,68.726,-206.848,-294.434

0.666,-4.000,2.609,92.651,-165.710,-240.173



1.371,-3.015,2.643,118.286,-54.260,-66.528

1.309,-2.514,2.415,84.473,7.019,12.939

0.909,-2.064,2.163,9.644,64.148,88.013

0.294,-1.759,1.837,-58.960,111.755,153.503

-0.301,-1.559,1.482,-82.275,142.273,197.510

-0.661,-1.385,1.125,-63.354,147.217,215.088

-0.763,-1.143,0.849,-33.203,129.944,212.341

-0.723,-0.928,0.689,-12.390,101.990,196.045

-0.613,-0.792,0.655,-6.592,68.542,172.302

-0.506,-0.708,0.665,-2.808,39.307,147.827

-0.380,-0.649,0.684,8.179,21.423,126.892

-0.224,-0.598,0.732,20.508,11.597,110.291

-0.081,-0.539,0.785,28.809,5.676,98.206

0.038,-0.483,0.810,36.438,5.249,90.393

0.182,-0.401,0.830,41.138,8.972,88.135

0.276,-0.289,0.831,39.917,11.841,93.567

0.327,-0.215,0.836,36.865,12.085,102.844

0.369,-0.154,0.775,32.654,12.573,111.572

0.389,-0.070,0.700,26.245,14.160,119.263

0.364,0.014,0.650,20.447,16.235,125.488

0.295,-0.022,0.606,19.226,16.174,129.517

0.248,0.116,0.599,2.930,13.977,129.517

0.204,0.088,0.593,14.893,11.475,123.779

0.160,0.097,0.612,22.949,6.775,117.004

0.133,0.130,0.646,22.095,2.686,109.375

0.113,0.196,0.689,26.306,-1.221,102.600

0.130,0.290,0.717,34.485,-4.944,96.191

0.207,0.431,0.746,42.664,-7.568,88.623

0.259,0.496,0.799,54.443,-7.812,78.552

0.307,0.548,0.872,57.617,-3.357,68.787

0.350,0.579,0.932,58.472,2.930,61.218

0.381,0.567,0.997,50.964,7.446,56.091

0.392,0.526,1.048,31.738,11.230,53.406

0.374,0.485,1.052,4.211,14.038,53.284

0.331,0.448,1.021,-23.804,16.724,54.199

0.325,0.424,0.956,-47.607,19.226,53.650

0.367,0.383,0.833,-61.584,20.325,48.889

0.399,0.361,0.728,-65.613,18.005,41.748

0.425,0.356,0.640,-62.866,12.756,35.278

0.461,0.379,0.570,-51.880,6.348,31.860

0.460,0.411,0.554,-35.522,-1.953,31.006

0.435,0.425,0.586,-15.808,-9.521,31.250

0.409,0.425,0.656,3.296,-13.733,31.128

0.395,0.404,0.745,18.494,-13.489,29.663

0.395,0.387,0.854,26.794,-10.010,28.687

0.393,0.380,0.949,27.832,-4.944,31.006

0.403,0.411,1.020,23.254,0.671,36.011

0.418,0.471,1.047,15.137,6.958,41.565

0.418,0.507,1.023,7.385,13.184,45.044

0.408,0.518,1.003,-0.610,19.409,45.959

0.392,0.518,0.981,-7.568,24.597,44.189

0.374,0.527,0.931,-11.902,26.794,39.978

0.362,0.517,0.881,-10.437,25.574,34.302

0.345,0.471,0.856,-8.667,22.034,27.344

0.329,0.440,0.843,-12.634,16.846,19.348

0.326,0.397,0.818,-10.376,10.498,11.719

0.340,0.377,0.801,-9.949,3.540,4.944

0.364,0.341,0.823,-9.888,-2.747,-1.099

0.405,0.312,0.857,-10.315,-8.667,-5.127

0.451,0.306,0.892,-12.329,-13.123,-5.554

0.493,0.308,0.909,-13.428,-15.137,-1.953

0.513,0.317,0.917,-15.259,-14.771,3.296

0.516,0.322,0.925,-17.517,-11.719,8.301

0.506,0.328,0.926,-18.799,-6.897,12.329

0.495,0.338,0.914,-19.653,-1.038,14.526

0.468,0.345,0.903,-19.104,4.944,15.808

0.431,0.348,0.894,-15.991,9.094,16.846

0.396,0.351,0.886,-11.475,10.315,17.395

0.372,0.368,0.881,-7.507,8.606,16.418

0.357,0.380,0.867,-3.967,4.822,14.099

0.359,0.396,0.858,-1.465,0.916,11.047

0.360,0.413,0.851,0.183,-2.380,7.812

0.368,0.427,0.850,1.587,-5.188,5.066

0.381,0.444,0.850,2.625,-7.263,3.540

0.392,0.457,0.856,3.601,-8.911,3.357

0.413,0.469,0.880,3.235,-9.583,4.944

0.426,0.507,0.894,0.061,-8.972,9.277

0.403,0.539,0.902,-5.310,-8.179,15.198

0.365,0.552,0.895,-9.827,-6.348,18.860

0.323,0.561,0.878,-13.428,-4.700,19.287

0.292,0.569,0.859,-16.846,-3.662,16.785

0.261,0.563,0.840,-19.531,-4.272,13.000

0.237,0.562,0.806,-18.127,-6.287,8.972

0.220,0.578,0.781,-13.550,-8.972,5.615

0.206,0.593,0.774,-6.165,-10.010,2.563

0.206,0.594,0.777,2.441,-9.155,-1.587

0.210,0.601,0.783,11.780,-6.897,-6.897

0.200,0.626,0.786,23.132,-3.418,-11.414

0.179,0.655,0.794,37.842,1.953,-14.343

0.174,0.682,0.835,53.894,9.399,-16.174

0.182,0.764,0.893,65.491,17.700,-15.991

0.184,0.897,0.905,72.083,23.499,-13.367

0.181,1.012,0.918,70.068,25.574,-12.573

0.173,1.123,0.935,56.396,24.780,-14.038

0.153,1.250,0.940,38.879,22.827,-14.587

0.156,1.367,0.914,28.076,20.691,-14.587

0.182,1.525,0.866,23.926,18.616,-16.479

0.236,1.710,0.805,24.597,18.066,-22.400

0.285,1.925,0.790,32.227,19.714,-29.541

0.280,2.254,0.835,47.852,26.367,-32.898

0.205,2.710,0.961,76.111,44.006,-30.884

0.027,3.187,1.157,122.498,75.867,-26.550

-0.236,3.567,1.424,169.189,117.615,-29.419

-0.537,3.754,1.701,187.073,161.743,-55.237

-0.833,3.622,1.805,162.903,198.486,-115.234

-0.994,3.044,1.683,86.914,214.233,-199.402

-1.038,1.980,1.273,-32.288,196.411,-288.513

-1.311,0.670,0.703,-168.274,128.906,-357.239

-1.770,-1.162,0.245,-290.955,7.874,-390.381

-1.989,-3.700,-0.270,-392.822,-163.269,-390.564

-1.999,-4.000,-0.449,-441.895,-384.827,-379.883

-1.634,-4.000,-0.163,-348.022,-522.461,-340.149

-0.844,-4.000,0.502,-83.130,-462.158,-281.311

0.071,-4.000,1.583,147.827,-290.466,-270.508

0.942,-4.000,2.588,254.517,-127.075,-272.583

1.576,-4.000,3.148,264.954,-14.160,-231.506

1.916,-4.000,3.160,214.172,42.908,-149.231

1.840,-3.379,2.724,125.977,54.932,-37.415

1.198,-2.546,2.110,8.911,61.462,85.327



-0.536,-1.791,1.024,-115.173,115.173,221.252

-0.966,-1.401,0.595,-104.858,116.394,218.994

-1.098,-0.920,0.402,-77.515,86.609,206.848

-1.054,-0.493,0.381,-50.476,40.588,192.444

-0.950,-0.256,0.474,-38.757,-3.601,165.955

-0.852,-0.228,0.648,-37.109,-35.339,130.188

-0.744,-0.266,0.799,-37.842,-51.270,92.102

-0.644,-0.261,0.863,-37.537,-54.260,56.580

-0.568,-0.206,0.836,-29.663,-50.293,27.954

-0.439,-0.263,0.808,-14.099,-43.701,2.380

-0.226,-0.294,0.867,-9.583,-36.987,-16.235

-0.007,-0.331,0.937,2.563,-33.508,-17.090

0.148,-0.306,0.969,7.996,-33.447,1.770

0.239,-0.308,1.008,8.972,-32.043,30.457

0.270,-0.353,1.047,5.615,-27.466,60.974

0.274,-0.379,1.028,-4.150,-18.738,86.914

0.259,-0.383,0.956,-17.395,-6.531,104.370

0.236,-0.403,0.874,-26.794,5.615,112.793

0.225,-0.426,0.793,-29.541,15.381,112.061

0.247,-0.400,0.710,-29.358,21.667,105.652

0.295,-0.321,0.642,-24.658,25.269,98.511

0.327,-0.239,0.613,-12.512,27.283,93.567

0.357,-0.195,0.615,1.709,29.114,90.393

0.388,-0.146,0.627,11.292,32.104,86.975

0.410,-0.102,0.653,15.991,36.621,84.778

0.433,-0.041,0.693,13.977,43.823,84.351

0.448,0.028,0.734,11.780,52.612,86.548

0.440,0.116,0.786,10.620,61.584,93.567

0.436,0.198,0.779,14.160,69.763,102.295

0.446,0.283,0.737,20.081,75.134,106.873

0.447,0.351,0.718,24.170,78.003,106.079

0.462,0.405,0.692,27.527,76.965,101.929

0.462,0.458,0.668,26.550,69.824,96.497

0.460,0.495,0.650,21.301,58.472,91.125

0.456,0.520,0.646,12.512,45.532,85.510

0.441,0.536,0.660,2.686,32.715,79.102

0.421,0.560,0.686,-4.761,22.461,71.533

0.424,0.600,0.705,-10.132,14.160,63.293

0.462,0.645,0.711,-12.939,7.324,54.077

0.501,0.688,0.716,-15.686,0.671,45.471

0.520,0.706,0.730,-18.127,-5.188,37.964

0.516,0.709,0.747,-19.775,-10.986,33.142

0.500,0.703,0.779,-21.606,-16.907,30.029

0.487,0.688,0.826,-24.231,-21.423,27.954

0.469,0.686,0.864,-28.564,-25.452,26.978

0.439,0.664,0.898,-32.898,-28.748,27.283

0.423,0.669,0.926,-38.635,-30.457,28.381

0.406,0.671,0.932,-44.128,-30.640,28.870

0.377,0.666,0.928,-47.241,-28.870,28.625

0.362,0.654,0.918,-48.157,-24.780,27.771

0.342,0.629,0.896,-48.645,-18.860,26.123

0.327,0.634,0.878,-52.124,-13.000,23.499

0.307,0.607,0.851,-44.861,-8.118,23.010

0.288,0.600,0.836,-36.804,-4.028,23.804

0.267,0.601,0.827,-27.893,-0.244,24.048

0.243,0.600,0.827,-16.174,3.662,23.254

0.233,0.576,0.845,-3.967,6.714,21.057

0.252,0.542,0.880,4.700,8.240,17.456

0.285,0.525,0.910,8.545,6.775,15.320

0.303,0.532,0.936,7.385,3.113,16.235

0.314,0.524,0.959,5.127,-1.282,18.738

0.320,0.516,0.962,-0.854,-4.395,21.179

0.328,0.519,0.950,-10.559,-5.249,21.362

0.337,0.524,0.932,-18.372,-4.089,19.287

0.338,0.507,0.910,-21.790,-2.502,15.808

0.338,0.486,0.881,-22.644,-2.075,11.780

0.338,0.481,0.845,-21.362,-3.662,7.935

0.334,0.492,0.809,-18.921,-7.263,5.188

0.321,0.506,0.789,-14.771,-11.719,3.540

0.304,0.519,0.788,-9.827,-15.808,1.953

0.291,0.532,0.792,-4.395,-19.165,-0.427

0.284,0.562,0.792,1.160,-21.912,-2.563

0.272,0.593,0.814,6.409,-22.888,-4.517

0.267,0.619,0.840,10.376,-22.461,-5.554

0.262,0.650,0.861,12.695,-22.278,-6.287

0.235,0.700,0.877,13.916,-21.606,-6.531

0.200,0.767,0.896,15.686,-18.921,-5.859

0.159,0.840,0.929,16.541,-14.771,-4.761

0.118,0.935,0.944,17.212,-9.033,-2.136

0.094,1.038,0.935,20.752,-1.221,1.526

0.081,1.115,0.903,25.635,9.399,3.479

0.080,1.161,0.853,29.602,20.935,2.258

0.077,1.183,0.800,31.494,30.640,-0.916

0.066,1.189,0.763,30.701,38.086,-6.531

0.045,1.169,0.740,26.917,41.382,-16.357

0.022,1.148,0.717,20.752,37.354,-28.198

0.032,1.149,0.699,14.221,26.306,-39.429

0.054,1.165,0.686,8.484,10.193,-50.476

0.047,1.199,0.696,4.456,-6.042,-61.462

0.045,1.230,0.695,5.615,-18.188,-73.059

0.059,1.257,0.682,12.085,-24.475,-85.144

0.082,1.268,0.658,20.752,-25.513,-99.548

0.114,1.250,0.635,29.724,-23.682,-116.272

0.149,1.198,0.628,36.377,-21.545,-133.789

0.191,1.141,0.641,38.513,-22.522,-150.696

0.234,1.094,0.660,36.560,-27.710,-163.452

0.301,1.008,0.670,34.241,-36.194,-171.326

0.342,1.003,0.688,20.203,-46.509,-178.162

0.338,0.963,0.707,5.798,-55.176,-184.814

0.302,0.828,0.755,-5.127,-59.387,-191.467

0.221,0.648,0.788,-23.621,-61.707,-196.838

0.082,0.421,0.807,-53.162,-62.317,-196.899

-0.107,0.110,0.841,-87.341,-62.683,-187.683

-0.385,-0.320,0.892,-119.019,-65.125,-171.570

-0.789,-0.922,0.883,-133.240,-73.364,-155.823

-1.232,-1.670,0.842,-122.375,-89.966,-147.461

-1.441,-2.431,0.925,-95.459,-112.549,-151.917

-1.413,-3.110,1.185,-56.335,-135.559,-165.833

-1.117,-3.522,1.548,-9.766,-168.945,-182.007

-0.696,-3.444,1.940,36.194,-198.975,-194.275

-0.223,-3.197,2.235,73.120,-189.636,-189.575

0.253,-2.886,2.429,95.581,-141.541,-168.884

0.631,-2.511,2.408,101.440,-79.102,-142.212

0.874,-2.178,2.169,90.515,-17.212,-109.497

0.911,-1.906,1.844,60.852,31.189,-67.749

0.738,-1.645,1.538,10.498,61.523,-15.747

0.400,-1.405,1.285,-43.274,70.740,42.969

-0.005,-1.174,1.107,-75.623,63.599,96.436

-0.351,-0.913,0.921,-80.139,50.171,130.615



0.346,1.437,0.969,84.961,41.382,-65.735

0.301,1.688,1.044,94.055,54.321,-64.636

0.244,1.956,1.114,97.961,71.289,-64.941

0.162,2.142,1.150,95.459,91.797,-68.970

0.029,2.191,1.164,84.045,113.281,-79.163

-0.143,2.042,1.109,53.162,129.211,-100.281

-0.344,1.675,1.000,-0.977,136.963,-133.240

-0.576,1.109,0.857,-69.641,135.315,-174.988

-0.827,0.418,0.610,-138.123,117.371,-216.003

-1.085,-0.517,0.310,-201.721,72.327,-247.009

-1.259,-1.672,0.335,-269.226,-8.179,-262.756

-1.174,-3.036,0.112,-322.571,-134.583,-268.188

-0.919,-3.919,0.000,-336.853,-317.139,-261.169

-0.559,-4.000,0.312,-278.687,-472.900,-223.572

-0.039,-4.000,1.078,-130.676,-496.216,-169.983

0.371,-4.000,2.013,16.113,-393.311,-137.085

0.788,-3.995,2.624,120.728,-231.934,-104.431

1.091,-3.370,2.823,178.345,-60.120,-55.298

1.097,-2.801,2.790,183.655,83.923,-6.653

0.857,-2.314,2.535,158.630,179.749,34.851

0.506,-1.863,2.103,113.220,219.849,73.120

0.169,-1.426,1.664,48.462,210.449,110.107

-0.110,-1.075,1.305,-7.935,169.861,142.151

-0.340,-0.817,0.986,-41.382,117.981,161.499

-0.518,-0.563,0.769,-58.960,65.918,168.030

-0.592,-0.309,0.668,-70.435,23.865,160.828

-0.584,-0.051,0.650,-78.918,-4.150,140.076

-0.545,-0.028,0.684,-63.110,-17.883,113.831

-0.512,0.003,0.740,-52.551,-23.254,87.769

-0.490,0.049,0.793,-54.138,-22.156,60.730

-0.487,0.058,0.822,-43.640,-19.226,35.522

-0.475,0.053,0.837,-30.579,-18.677,10.681

-0.411,-0.021,0.886,-15.442,-18.738,-16.174

-0.287,-0.142,0.987,0.366,-18.066,-37.842

-0.151,-0.214,1.097,9.766,-17.273,-44.006

-0.035,-0.231,1.189,11.841,-17.395,-32.227

0.035,-0.238,1.229,10.559,-17.151,-8.362

0.103,-0.268,1.272,5.554,-12.817,19.165

0.166,-0.301,1.291,-5.188,-3.540,44.922

0.163,-0.316,1.259,-17.334,7.507,65.674

0.128,-0.296,1.188,-24.963,19.287,79.102

0.094,-0.284,1.113,-26.062,30.396,83.496

0.080,-0.278,1.058,-24.475,40.283,79.468

0.084,-0.268,1.017,-18.555,48.035,69.031

0.109,-0.240,0.991,-8.911,53.528,56.824

0.165,-0.212,0.968,2.380,57.434,45.288

0.240,-0.199,0.940,12.878,59.875,35.217

0.299,-0.202,0.913,20.447,62.256,26.978

0.359,-0.230,0.888,29.358,66.467,20.630

0.426,-0.256,0.868,34.424,70.129,17.395

0.517,-0.258,0.854,34.729,71.350,20.142

0.602,-0.231,0.835,31.494,69.946,30.212

0.637,-0.192,0.802,29.358,65.613,43.762

0.640,-0.133,0.760,27.161,59.692,55.298

0.620,-0.048,0.707,28.748,55.115,63.049

0.596,0.025,0.675,34.668,53.406,64.880

0.574,0.077,0.660,41.321,53.711,60.852

0.561,0.099,0.661,46.631,51.758,53.528

0.545,0.099,0.675,50.171,45.654,44.739

0.520,0.111,0.696,51.331,35.706,36.743

0.510,0.128,0.716,52.307,24.597,30.579

0.525,0.161,0.733,54.382,12.512,24.902

0.570,0.194,0.760,55.969,0.854,20.691

0.609,0.207,0.808,56.824,-9.155,18.616

0.631,0.225,0.888,54.871,-16.907,19.775

0.636,0.246,0.948,49.500,-20.691,24.841

0.612,0.246,0.995,43.518,-20.203,31.433

0.586,0.232,1.021,36.011,-16.174,36.194

0.547,0.217,1.024,25.696,-9.033,37.476

0.503,0.202,1.001,17.273,-0.549,37.537

0.494,0.190,0.963,12.756,8.362,37.109

0.500,0.172,0.916,11.292,14.771,35.583

0.511,0.169,0.886,11.414,16.663,33.142

0.524,0.185,0.859,13.062,14.893,30.640

0.535,0.199,0.846,17.395,10.864,28.564

0.535,0.223,0.850,22.705,6.287,26.733

0.529,0.240,0.861,26.428,2.014,24.902

0.516,0.245,0.868,28.137,-1.648,22.827

0.500,0.246,0.865,27.100,-4.761,19.714

0.485,0.238,0.855,23.376,-8.118,14.893

0.487,0.221,0.880,17.456,-11.719,10.010

0.510,0.203,0.929,9.705,-15.564,7.446

0.540,0.221,0.948,-1.404,-20.752,9.033

0.559,0.270,0.954,-11.597,-26.428,15.442

0.570,0.322,0.960,-22.217,-28.870,23.865

0.564,0.360,0.958,-30.212,-25.818,30.579

0.538,0.390,0.939,-34.119,-17.944,35.339

0.513,0.421,0.916,-36.804,-7.751,37.476

0.486,0.446,0.891,-40.100,1.953,38.818

0.444,0.454,0.859,-43.274,8.484,40.833

0.397,0.458,0.826,-47.241,10.925,42.175

0.353,0.463,0.798,-52.063,10.254,42.542

0.319,0.464,0.766,-56.458,6.897,41.382

0.291,0.470,0.739,-61.523,1.709,38.635

0.265,0.462,0.727,-65.369,-3.906,34.973

0.253,0.458,0.712,-65.857,-9.399,30.334

0.249,0.462,0.701,-63.843,-14.954,24.963

0.234,0.464,0.689,-58.044,-20.142,20.142

0.238,0.474,0.681,-48.462,-24.902,15.808

0.245,0.483,0.682,-38.330,-28.076,10.803

0.238,0.482,0.693,-28.748,-30.273,5.432

0.234,0.477,0.704,-18.921,-31.006,0.427

0.233,0.476,0.714,-9.399,-31.494,-4.333

0.234,0.471,0.723,0.305,-31.860,-9.521

0.247,0.469,0.736,9.521,-31.799,-14.221

0.256,0.464,0.754,17.578,-31.555,-17.822

0.257,0.454,0.774,24.780,-31.372,-19.836

0.266,0.443,0.808,30.518,-31.494,-20.874

0.288,0.443,0.845,35.278,-31.677,-21.301

0.304,0.439,0.874,40.222,-32.471,-20.752

0.328,0.472,0.883,45.959,-33.508,-18.860

0.350,0.528,0.884,49.561,-32.837,-15.625

0.362,0.569,0.904,49.072,-27.893,-11.414

0.357,0.612,0.934,52.979,-20.081,-6.165

0.346,0.706,0.966,59.387,-10.376,0.793

0.341,0.874,1.009,71.045,2.563,12.085

0.360,1.100,1.039,91.858,22.705,27.893

0.388,1.355,1.057,119.141,49.194,45.166

0.396,1.666,1.117,145.142,78.796,60.852



0.275,2.414,1.305,181.152,142.883,71.899

0.186,2.741,1.415,178.772,171.875,56.458

0.116,3.000,1.478,156.616,189.819,25.146

0.043,3.198,1.526,110.596,189.575,-14.465

-0.105,3.318,1.517,49.133,171.692,-51.331

-0.254,3.196,1.448,-11.047,141.296,-84.778

-0.404,2.866,1.294,-74.829,109.070,-118.896

-0.568,2.308,1.017,-143.005,81.543,-157.043

-0.784,1.556,0.670,-207.703,57.129,-198.730

-1.059,0.551,0.217,-260.986,22.766,-242.676

-1.514,-0.579,0.085,-314.026,-47.485,-283.386

-1.920,-1.764,-0.061,-366.638,-150.330,-315.308

-2.027,-3.133,-0.245,-385.132,-301.880,-334.412

-1.814,-4.000,0.056,-358.765,-505.066,-330.994

-1.555,-4.000,1.020,-277.527,-678.040,-291.565

-1.366,-4.000,2.091,-110.291,-685.547,-232.056

-0.936,-4.000,2.991,88.257,-496.155,-171.326

-0.144,-4.000,3.625,221.863,-224.731,-129.883

0.278,-3.640,3.663,252.197,24.780,-109.253

0.527,-3.061,3.206,217.773,193.787,-88.318

0.508,-2.673,2.658,176.575,259.583,-56.274

0.426,-2.340,2.057,126.160,260.620,-6.165

0.339,-1.966,1.482,59.143,223.999,41.199

0.188,-1.573,0.942,-16.052,164.551,80.322

-0.038,-1.290,0.527,-70.435,96.558,108.337

-0.268,-1.026,0.324,-93.567,32.166,127.075

-0.410,-0.731,0.300,-93.079,-11.719,133.545

-0.453,-0.461,0.393,-75.745,-29.846,122.498

-0.453,-0.301,0.544,-52.917,-30.334,100.952

-0.440,-0.226,0.711,-35.522,-25.818,76.721

-0.426,-0.175,0.836,-26.917,-23.926,52.490

-0.412,-0.123,0.900,-22.827,-24.963,29.663

-0.385,-0.111,0.918,-15.503,-25.940,6.714

-0.301,-0.163,0.949,-8.057,-23.315,-14.954

-0.178,-0.219,0.986,-4.944,-18.433,-29.419

-0.065,-0.260,1.024,-5.432,-14.648,-31.250

0.007,-0.304,1.062,-5.676,-14.038,-19.897

0.070,-0.350,1.082,-4.211,-14.282,-1.709

0.130,-0.380,1.105,-10.132,-11.230,16.052

0.185,-0.405,1.114,-11.963,-5.310,33.020

0.216,-0.393,1.092,-13.794,1.343,46.936

0.232,-0.398,1.064,-16.113,7.996,56.702

0.234,-0.432,1.040,-17.029,15.625,61.951

0.256,-0.445,1.004,-16.541,22.461,63.171

0.291,-0.424,0.967,-13.611,28.564,61.340

0.325,-0.393,0.938,-5.310,32.715,58.472

0.362,-0.363,0.934,6.470,36.011,57.068

0.392,-0.336,0.940,17.944,39.185,57.495

0.401,-0.316,0.943,29.968,43.640,59.326

0.402,-0.293,0.951,42.236,49.072,62.866

0.407,-0.288,0.979,51.941,54.626,67.200

0.411,-0.293,0.991,58.777,58.655,74.280

0.430,-0.280,0.992,63.477,60.486,82.581

0.444,-0.231,0.986,64.880,61.035,89.966

0.421,-0.180,0.996,65.491,60.364,95.764

0.412,-0.141,0.989,68.726,59.814,99.487

0.423,-0.080,0.984,72.021,58.167,100.281

0.445,-0.050,0.984,74.890,53.528,97.107

0.453,-0.051,0.996,77.148,46.936,90.149

0.456,-0.037,1.000,75.195,38.574,82.520

0.455,-0.008,1.004,69.763,29.419,75.745

0.462,0.003,1.014,61.890,19.531,70.435

0.467,0.008,1.024,52.246,8.972,65.430

0.451,0.019,1.027,40.466,-0.793,59.570

0.424,0.037,1.023,30.334,-8.362,53.894

0.414,0.052,1.009,20.752,-14.648,49.377

0.405,0.043,0.993,11.841,-19.104,46.753

0.391,0.039,0.965,5.676,-21.729,45.776

0.387,0.071,0.936,3.296,-23.376,44.434

0.394,0.107,0.902,4.272,-25.024,41.077

0.378,0.124,0.875,6.653,-26.550,36.682

0.362,0.136,0.857,8.972,-26.550,33.691

0.350,0.144,0.849,10.010,-25.330,31.982

0.339,0.159,0.842,9.766,-24.109,31.555

0.326,0.174,0.832,7.690,-23.437,31.738

0.326,0.186,0.811,4.211,-23.621,32.104

0.319,0.203,0.798,-1.282,-24.719,32.654

0.301,0.214,0.786,-6.287,-26.062,33.142

0.290,0.239,0.777,-8.789,-26.855,33.813

0.290,0.286,0.780,-8.728,-26.733,34.485

0.296,0.312,0.780,-5.859,-26.489,34.363

0.324,0.348,0.784,-3.845,-26.550,33.997

0.349,0.392,0.783,-5.066,-26.733,35.095

0.365,0.430,0.801,-8.972,-26.978,39.063

0.385,0.478,0.824,-15.381,-25.574,45.776

0.381,0.513,0.845,-21.484,-22.705,53.467

0.365,0.543,0.850,-25.024,-19.409,61.035

0.342,0.581,0.849,-26.978,-15.137,67.322

0.312,0.618,0.856,-27.344,-8.667,70.923

0.288,0.648,0.860,-26.306,-1.282,70.435

0.244,0.644,0.847,-24.902,5.249,67.261

0.208,0.674,0.860,-25.635,9.827,63.293

0.165,0.615,0.838,-22.217,10.559,57.739

0.144,0.646,0.828,-28.503,7.446,52.979

0.104,0.619,0.821,-23.926,1.709,47.058

0.066,0.618,0.822,-16.724,-6.042,41.748

0.041,0.624,0.829,-10.437,-14.526,34.119

0.017,0.636,0.833,-2.563,-21.790,24.902

-0.003,0.643,0.840,5.981,-25.940,15.747

-0.012,0.656,0.873,15.076,-27.100,6.531

-0.032,0.688,0.904,25.452,-26.306,-3.418

-0.062,0.744,0.946,36.011,-23.865,-13.794

-0.080,0.819,1.011,45.654,-18.799,-25.635

-0.077,0.935,1.095,56.885,-10.315,-39.429

-0.055,1.040,1.136,67.688,-1.221,-53.467

-0.033,1.136,1.164,73.608,5.005,-64.514

0.026,1.160,1.195,76.721,7.751,-72.083

0.091,1.286,1.217,81.909,7.751,-70.557

0.158,1.487,1.238,91.064,11.108,-62.500

0.219,1.754,1.291,108.032,21.667,-53.772

0.303,2.131,1.336,130.493,40.100,-43.823

0.363,2.604,1.407,157.837,68.237,-32.593

0.372,3.074,1.533,185.669,107.178,-25.635

0.301,3.461,1.701,204.834,151.550,-24.170

0.141,3.725,1.894,218.018,196.350,-24.414

-0.064,3.812,2.066,211.609,234.314,-32.288

-0.261,3.701,2.156,166.016,261.963,-59.021

-0.454,3.333,2.022,69.397,278.687,-105.347

-0.643,2.617,1.629,-78.674,275.208,-160.583



-1.350,0.230,0.362,-426.514,146.606,-250.183

-1.801,-1.317,-0.143,-589.905,-1.892,-268.738

-2.187,-2.921,-0.845,-721.558,-209.839,-269.470

-2.267,-3.998,-1.107,-746.826,-469.910,-260.864

-1.915,-4.000,-0.461,-590.637,-680.786,-244.446

-1.744,-4.000,0.703,-262.329,-666.321,-196.655

-1.385,-4.000,1.935,110.352,-413.269,-127.075

-1.239,-4.000,3.089,385.864,-105.286,-95.947

-0.710,-4.000,3.618,435.974,106.812,-108.154

-0.235,-3.999,3.943,325.073,153.320,-137.573

0.299,-3.230,3.864,179.321,96.191,-130.432

0.601,-2.968,3.302,101.379,22.705,-87.280

0.850,-2.601,2.420,-3.723,-0.305,-39.551

0.752,-2.145,1.583,-120.422,13.184,9.949

0.342,-2.063,0.875,-119.629,42.603,50.354

-0.048,-1.898,0.497,-93.323,58.777,85.815

-0.300,-1.486,0.395,-68.054,59.265,115.234

-0.428,-1.030,0.513,-29.541,51.941,132.324

-0.510,-0.702,0.711,4.517,36.987,133.667

-0.546,-0.437,0.877,16.785,19.775,123.840

-0.588,-0.270,0.957,13.062,7.324,102.112

-0.651,-0.232,0.997,6.836,0.732,72.449

-0.668,-0.230,1.000,5.859,-1.221,40.466

-0.643,-0.294,0.987,10.681,-2.075,8.667

-0.577,-0.416,0.988,20.752,-3.113,-20.081

-0.474,-0.533,0.994,28.931,-4.211,-43.213

-0.316,-0.693,1.027,41.138,-7.019,-55.847

-0.134,-0.790,1.090,46.021,-13.306,-53.589

-0.013,-0.837,1.174,42.542,-22.827,-35.828

0.109,-0.863,1.253,37.659,-30.762,-6.409

0.206,-0.811,1.314,24.231,-30.762,26.733

0.240,-0.764,1.294,14.343,-21.545,58.777

0.213,-0.719,1.262,5.676,-3.845,85.266

0.174,-0.639,1.194,-1.465,19.531,102.417

0.137,-0.510,1.085,-3.784,42.297,109.802

0.114,-0.375,0.977,1.282,60.730,109.741

0.115,-0.290,0.880,12.939,72.937,105.957

0.139,-0.240,0.804,28.259,78.613,102.112

0.157,-0.210,0.757,42.664,77.637,98.450

0.164,-0.196,0.759,55.603,71.106,95.398

0.162,-0.181,0.786,66.467,60.181,91.370

0.153,-0.136,0.805,71.594,47.607,86.609

0.161,-0.078,0.848,70.679,36.621,82.275

0.208,-0.035,0.907,67.017,27.588,78.308

0.283,0.021,0.958,61.829,19.287,75.500

0.368,0.090,0.987,55.969,10.681,74.768

0.437,0.150,1.001,50.903,2.319,73.914

0.493,0.199,1.014,44.312,-4.272,70.190

0.518,0.213,1.012,39.185,-7.202,65.430

0.537,0.208,1.025,35.095,-5.737,60.730

0.536,0.189,1.029,29.846,-0.854,55.969

0.519,0.170,1.021,23.499,5.371,52.063

0.511,0.139,0.994,16.418,11.292,49.744

0.521,0.116,0.953,6.958,14.343,48.279

0.518,0.112,0.895,-4.150,13.733,46.631

0.508,0.119,0.844,-13.611,10.193,46.021

0.509,0.125,0.813,-20.264,5.127,47.302

0.513,0.116,0.781,-24.048,0.244,48.828

0.507,0.118,0.766,-26.062,-4.944,49.683

0.488,0.141,0.757,-24.658,-8.667,50.049

0.463,0.183,0.755,-20.081,-9.827,49.805

0.424,0.200,0.766,-14.648,-8.545,48.401

0.399,0.198,0.788,-10.681,-5.432,45.593

0.389,0.202,0.797,-9.033,-3.174,41.687

0.378,0.197,0.798,-8.789,-4.395,37.598

0.375,0.188,0.803,-11.841,-8.057,34.485

0.381,0.162,0.803,-18.860,-13.367,32.654

0.395,0.147,0.801,-26.123,-20.203,32.104

0.403,0.161,0.794,-32.043,-27.466,32.776

0.400,0.183,0.791,-33.691,-33.630,34.180

0.385,0.205,0.799,-33.447,-36.316,35.217

0.383,0.209,0.805,-31.555,-35.522,33.936

0.377,0.226,0.817,-30.029,-32.593,31.494

0.376,0.237,0.837,-27.710,-29.297,30.151

0.367,0.235,0.872,-25.940,-24.963,31.799

0.375,0.239,0.904,-24.231,-21.362,35.706

0.395,0.274,0.914,-23.804,-18.860,41.138

0.384,0.307,0.930,-25.757,-16.602,47.485

0.345,0.315,0.947,-27.954,-12.024,53.101

0.296,0.317,0.950,-28.748,-5.066,56.458

0.249,0.302,0.944,-28.809,2.686,56.335

0.218,0.285,0.926,-27.588,9.033,52.856

0.189,0.268,0.908,-26.489,11.963,47.302

0.165,0.246,0.882,-25.208,11.719,41.199

0.164,0.233,0.857,-23.865,7.812,35.095

0.167,0.226,0.841,-22.827,1.282,29.785

0.166,0.225,0.845,-21.362,-5.798,25.574

0.174,0.222,0.851,-18.921,-11.902,21.423

0.178,0.216,0.869,-16.785,-16.846,17.883

0.193,0.227,0.891,-12.756,-20.142,15.503

0.213,0.257,0.915,-6.958,-21.606,14.099

0.227,0.305,0.937,0.061,-21.240,13.123

0.242,0.351,0.949,6.470,-18.921,12.573

0.249,0.392,0.965,11.353,-13.916,12.329

0.250,0.426,0.982,14.160,-6.653,12.817

0.240,0.444,1.003,17.029,0.854,13.000

0.239,0.469,1.005,19.409,7.263,11.841

0.249,0.520,0.995,19.043,11.719,9.583

0.265,0.577,0.979,17.029,15.137,6.348

0.251,0.623,0.952,15.808,18.005,2.502

0.237,0.670,0.921,16.418,19.897,-1.770

0.230,0.711,0.875,15.747,21.240,-6.897

0.217,0.730,0.848,12.817,22.339,-12.756

0.196,0.724,0.845,10.010,23.132,-17.822

0.168,0.712,0.864,8.118,22.766,-21.790

0.146,0.705,0.875,9.705,20.447,-25.330

0.144,0.734,0.873,14.404,16.052,-29.236

0.167,0.788,0.865,21.667,11.963,-34.485

0.192,0.845,0.889,28.687,10.559,-41.748

0.229,0.915,0.908,36.865,11.169,-50.720

0.305,1.010,0.918,42.847,11.475,-59.387

0.368,1.099,0.923,47.119,10.925,-64.819

0.416,1.165,0.942,48.096,10.315,-67.627

0.446,1.221,0.986,46.326,9.155,-69.092

0.468,1.297,1.016,44.434,8.545,-68.970

0.503,1.388,1.007,47.058,8.728,-67.871

0.575,1.507,0.998,51.514,10.437,-69.458

0.672,1.615,0.982,54.321,12.695,-77.271

0.753,1.725,0.980,53.467,14.282,-90.149



0.838,1.927,1.008,38.269,17.761,-117.004

0.828,1.975,0.997,30.579,22.766,-127.808

0.773,1.923,0.957,23.376,31.189,-138.062

0.642,1.697,0.884,8.911,42.542,-150.574

0.467,1.395,0.858,-23.010,54.382,-163.818

0.194,0.944,0.811,-70.740,63.477,-172.729

-0.243,0.488,0.756,-140.930,63.965,-173.828

-0.837,-0.240,0.616,-204.346,53.162,-163.818

-1.534,-1.252,0.521,-251.099,27.588,-143.066

-2.100,-2.502,0.476,-287.781,-15.686,-124.329

-2.452,-3.621,0.447,-317.383,-84.045,-116.028

-2.359,-4.000,0.499,-308.960,-172.607,-112.732

-2.028,-4.000,0.845,-207.336,-259.583,-105.713

-1.647,-4.000,1.498,-21.362,-300.964,-110.596

-1.151,-4.000,2.428,128.601,-263.916,-137.146

-0.347,-4.000,3.163,202.393,-158.081,-153.625

0.580,-3.674,3.468,214.722,-52.368,-145.508

1.185,-3.037,3.305,184.143,20.325,-109.436

1.192,-2.401,2.763,126.221,72.815,-41.687

0.711,-1.927,2.179,41.382,117.188,51.514

0.027,-1.738,1.780,-46.082,151.733,139.282

-0.663,-1.734,1.395,-99.426,155.640,191.223

-1.078,-1.646,1.089,-111.938,124.939,213.501

-1.198,-1.354,0.830,-102.295,82.642,216.431

-1.132,-1.011,0.699,-85.266,39.795,200.134

-0.982,-0.786,0.720,-73.303,3.723,170.532

-0.842,-0.706,0.802,-57.007,-12.085,137.390

-0.685,-0.660,0.910,-33.691,-7.019,108.887

-0.573,-0.542,0.921,-7.812,8.972,87.585

-0.513,-0.460,0.885,21.912,25.818,70.923

-0.413,-0.483,0.880,49.927,36.865,53.772

-0.249,-0.519,0.920,67.139,40.833,40.405

-0.073,-0.488,0.982,66.772,36.133,38.513

0.070,-0.401,1.001,54.565,23.010,49.072

0.154,-0.249,0.995,40.283,7.324,67.810

0.217,-0.166,0.932,35.950,-3.845,86.853

0.297,0.054,0.885,12.939,-7.019,98.633

0.344,0.159,0.822,12.146,-2.197,100.830

0.360,0.251,0.762,20.874,9.155,96.191

0.380,0.292,0.724,35.339,23.437,87.830

0.382,0.285,0.707,47.546,34.485,80.383

0.369,0.293,0.694,48.462,39.429,75.439

0.361,0.339,0.667,40.588,39.124,73.975

0.369,0.404,0.653,28.931,33.875,75.134

0.353,0.445,0.675,19.653,26.733,76.477

0.364,0.522,0.688,16.602,20.020,75.378

0.381,0.601,0.694,24.292,13.367,68.909

0.394,0.687,0.723,23.254,8.179,59.631

0.430,0.732,0.745,21.301,4.395,48.096

0.433,0.715,0.784,15.808,-0.061,36.804

0.419,0.686,0.830,0.977,-4.456,27.283

0.401,0.649,0.859,-13.367,-9.338,20.081

0.377,0.618,0.833,-23.804,-14.587,14.099

0.360,0.572,0.818,-30.762,-20.081,8.301

0.372,0.538,0.825,-34.729,-24.780,2.747

0.402,0.505,0.825,-38.025,-28.931,-1.892

0.430,0.491,0.817,-39.124,-33.203,-4.272

0.445,0.480,0.828,-36.316,-36.560,-4.517

0.463,0.445,0.836,-30.396,-36.987,-2.686

0.469,0.416,0.862,-22.583,-34.668,1.831

0.448,0.386,0.900,-14.160,-29.419,8.606

0.413,0.367,0.948,-4.395,-21.362,15.930

0.377,0.353,0.980,9.399,-12.695,23.132

0.363,0.339,0.989,23.560,-4.211,30.029

0.363,0.357,0.987,30.640,2.625,35.522

0.349,0.403,0.977,31.067,7.385,39.551

0.330,0.422,0.980,32.654,11.902,43.335

0.320,0.418,0.973,36.499,15.442,44.922

0.307,0.399,0.948,37.048,16.907,43.579

0.303,0.441,0.942,24.414,16.968,39.978

0.303,0.466,0.926,14.465,16.357,34.668

0.289,0.465,0.920,10.010,14.160,30.151

0.280,0.460,0.917,1.526,10.986,26.123

0.251,0.422,0.899,-9.644,7.324,21.973

0.270,0.454,0.897,-22.278,4.944,16.235

0.236,0.387,0.901,-23.315,0.305,9.583

0.253,0.389,0.926,-38.330,-2.258,7.324

0.285,0.362,0.940,-36.072,-5.005,4.761

0.301,0.347,0.954,-28.687,-9.521,6.531

0.314,0.342,0.948,-22.644,-13.855,11.108

0.312,0.340,0.933,-19.775,-15.625,16.846

0.310,0.339,0.934,-19.226,-12.817,20.935

0.314,0.345,0.939,-18.677,-5.737,23.315

0.313,0.355,0.946,-16.968,3.845,24.719

0.307,0.365,0.948,-14.587,14.099,25.818

0.303,0.363,0.942,-11.353,22.766,25.940

0.299,0.360,0.926,-10.010,27.771,25.146

0.298,0.363,0.906,-10.437,29.541,24.292

0.296,0.367,0.882,-11.902,28.564,23.376

0.289,0.374,0.865,-12.878,25.024,21.912

0.282,0.383,0.834,-12.024,19.897,19.653

0.276,0.401,0.805,-8.423,14.282,17.822

0.270,0.412,0.785,-2.258,10.254,15.930

0.266,0.422,0.783,5.737,7.507,13.489

0.260,0.436,0.785,14.160,5.676,9.949

0.263,0.456,0.787,22.705,4.456,6.226

0.272,0.475,0.797,30.884,3.357,2.625

0.281,0.509,0.818,38.635,2.441,-0.610

0.297,0.549,0.834,44.861,2.258,-3.540

0.301,0.589,0.854,49.011,2.625,-6.714

0.293,0.642,0.878,51.819,3.723,-9.583

0.276,0.686,0.904,53.467,5.310,-13.489

0.263,0.752,0.924,53.955,6.897,-20.020

0.269,0.831,0.914,54.688,8.972,-26.733

0.293,0.907,0.927,55.664,11.780,-32.410

0.323,0.997,0.929,57.739,15.198,-35.583

0.354,1.120,0.927,62.134,17.700,-36.072

0.357,1.282,0.927,69.214,20.081,-33.691

0.366,1.450,0.926,78.552,26.184,-30.640

0.395,1.632,0.932,86.426,36.743,-31.006

0.395,1.809,0.943,91.064,48.706,-34.424

0.418,1.987,0.990,92.896,59.326,-40.649

0.512,2.182,1.023,92.041,67.566,-49.438

0.638,2.374,1.096,88.440,69.946,-60.608

0.778,2.580,1.189,78.796,64.758,-72.937

0.918,2.777,1.223,58.228,57.251,-84.229

0.970,2.889,1.225,23.499,51.147,-94.421

0.899,2.815,1.151,-21.912,50.598,-103.088

0.766,2.464,0.956,-73.914,60.364,-113.281



0.160,1.292,0.510,-210.571,74.341,-137.695

-0.310,0.479,0.245,-282.288,59.265,-149.353

-0.885,-0.454,0.104,-337.402,25.635,-159.119

-1.612,-1.669,-0.140,-350.403,-34.668,-163.513

-2.015,-3.084,-0.325,-322.083,-133.301,-165.894

-2.064,-3.795,-0.292,-286.987,-282.288,-172.302

-2.010,-3.763,-0.016,-212.402,-442.993,-163.025

-1.937,-4.000,0.770,-46.936,-523.560,-154.114

-1.788,-4.000,2.137,133.423,-475.159,-159.424

-1.313,-4.000,3.592,245.667,-314.941,-158.264

-0.325,-3.953,4.000,262.390,-126.038,-146.912

0.386,-2.910,4.000,201.416,-5.615,-131.287

0.498,-2.197,3.485,132.385,59.021,-97.778

0.396,-2.067,2.749,93.811,109.497,-51.331

0.278,-2.017,2.028,44.678,151.672,-3.174

0.083,-1.843,1.422,-21.606,159.241,42.725

-0.202,-1.628,1.025,-75.317,131.714,88.623

-0.493,-1.432,0.776,-89.783,94.849,123.779

-0.712,-1.115,0.619,-79.102,60.852,141.968

-0.765,-0.762,0.562,-63.660,37.598,144.287

-0.702,-0.546,0.603,-46.997,23.560,132.996

-0.675,-0.517,0.722,-29.297,10.437,112.061

-0.688,-0.523,0.845,-10.925,-2.258,89.417

-0.691,-0.536,0.973,3.174,-10.559,69.214

-0.712,-0.493,1.050,13.184,-14.160,51.880

-0.695,-0.487,1.104,18.799,-16.052,31.921

-0.625,-0.573,1.139,24.414,-13.977,7.080

-0.464,-0.717,1.189,22.949,-11.536,-13.611

-0.220,-0.796,1.280,9.399,-7.935,-16.602

-0.052,-0.766,1.315,-5.371,-7.446,1.648

-0.001,-0.654,1.274,-15.137,-11.047,37.231

-0.038,-0.554,1.179,-20.264,-10.315,77.515

-0.101,-0.556,1.098,-17.517,-1.038,107.422

-0.145,-0.505,1.046,-26.245,17.090,120.605

-0.165,-0.469,0.970,-31.250,37.476,121.033

-0.177,-0.375,0.904,-22.156,54.138,116.089

-0.155,-0.277,0.838,-0.488,61.401,110.779

-0.129,-0.219,0.796,28.809,58.594,106.689

-0.091,-0.147,0.796,49.072,51.392,101.746

-0.022,-0.083,0.827,59.631,43.762,95.825

0.044,-0.056,0.865,67.444,38.635,90.759

0.101,0.014,0.930,67.810,35.767,87.952

0.145,0.064,1.001,74.585,35.156,86.060

0.200,0.112,1.042,82.336,37.598,85.754

0.265,0.174,1.048,85.999,40.222,88.501

0.309,0.251,1.038,86.975,41.321,91.736

0.316,0.317,1.039,82.092,41.870,92.407

0.342,0.324,1.025,76.233,43.335,89.905

0.378,0.336,1.012,68.970,43.762,83.740

0.416,0.386,1.001,62.317,41.992,74.158

0.455,0.420,0.969,61.829,38.025,63.354

0.489,0.479,0.943,57.251,33.264,54.199

0.493,0.511,0.928,48.889,29.907,46.631

0.504,0.520,0.919,42.419,27.466,40.283

0.495,0.495,0.900,32.654,25.269,33.325

0.497,0.503,0.864,15.564,24.658,24.902

0.505,0.517,0.810,0.671,23.865,19.470

0.501,0.520,0.764,-10.803,22.522,17.578

0.501,0.510,0.745,-18.799,21.057,18.188

0.494,0.499,0.723,-17.395,18.616,19.592

0.469,0.502,0.713,-9.155,15.015,20.813

0.456,0.536,0.737,0.977,13.428,21.362

0.465,0.566,0.776,10.071,14.893,20.752

0.484,0.596,0.802,14.587,16.296,20.325

0.481,0.615,0.839,11.658,15.198,21.545

0.466,0.631,0.884,3.906,13.855,23.804

0.454,0.640,0.895,-4.089,13.000,25.391

0.453,0.687,0.890,-13.000,11.780,25.330

0.449,0.696,0.874,-21.606,10.681,23.193

0.443,0.696,0.870,-28.748,11.658,20.935

0.444,0.688,0.855,-35.461,14.221,19.104

0.442,0.688,0.829,-42.236,16.541,17.090

0.430,0.661,0.808,-45.654,18.127,15.625

0.392,0.643,0.824,-44.800,18.860,14.954

0.372,0.534,0.782,-41.260,16.724,13.794

0.378,0.553,0.790,-52.490,16.174,12.146

0.363,0.515,0.778,-47.852,13.367,9.399

0.348,0.462,0.777,-39.856,10.681,8.057

0.356,0.433,0.781,-39.490,8.423,7.019

0.361,0.427,0.780,-45.166,6.165,5.371

0.355,0.390,0.780,-49.988,5.310,2.380

0.360,0.404,0.798,-57.617,6.653,-0.854

0.350,0.343,0.800,-57.495,7.629,-4.517

0.355,0.316,0.823,-58.716,8.179,-7.690

0.366,0.269,0.853,-56.580,8.057,-11.536

0.386,0.169,0.844,-57.922,6.897,-15.625

0.425,0.294,0.908,-70.862,10.681,-22.156

0.465,0.244,0.878,-48.279,5.249,-14.587

0.476,0.219,0.866,-31.189,0.732,-7.568

0.497,0.217,0.868,-26.855,3.174,-5.676

0.534,0.209,0.861,-20.081,8.240,-4.089

0.567,0.217,0.848,-11.841,15.320,-0.183

0.594,0.231,0.828,-8.118,26.123,6.042

0.594,0.231,0.810,-6.653,38.330,12.573

0.573,0.220,0.808,-3.174,50.903,18.188

0.548,0.202,0.770,3.784,62.195,22.095

0.543,0.223,0.768,10.498,70.251,23.865

0.582,0.250,0.771,12.024,77.942,23.865

0.601,0.275,0.776,9.827,86.914,25.208

0.576,0.319,0.771,5.859,97.534,28.625

0.386,0.463,0.731,-2.380,111.572,32.288

0.688,0.418,0.770,12.817,151.062,46.387

0.722,0.270,0.885,20.325,171.814,69.641

0.609,0.227,0.851,-22.278,135.315,65.552

0.485,0.225,0.830,-53.223,113.464,56.030

0.491,0.209,0.739,-49.316,108.582,62.805

0.497,0.247,0.668,-39.551,101.929,73.853

0.398,0.268,0.648,-33.936,97.656,76.233

0.343,0.196,0.548,-20.813,88.867,70.923

0.391,0.347,0.487,-13.245,84.900,61.890

0.393,0.587,0.488,-57.983,79.712,64.331

0.404,0.659,0.506,-101.379,69.763,93.018

0.431,0.604,0.547,-136.902,55.420,118.164

0.403,0.534,0.584,-172.119,39.612,122.192

0.406,0.359,0.619,-205.017,23.804,109.863

0.375,0.141,0.732,-217.346,3.479,87.402

0.203,-0.076,0.671,-195.618,-14.832,59.448

0.484,0.053,0.631,-154.541,-31.860,39.246

0.465,0.124,0.586,-120.361,-35.828,19.653



0.295,0.697,0.720,-302.734,-234.558,-136.658

0.278,0.452,0.693,-265.625,-273.987,-175.964

0.465,0.414,0.703,-212.830,-256.287,-185.730

0.423,0.293,1.032,-156.738,-251.282,-213.562

0.632,0.371,1.191,-75.378,-248.779,-219.604

0.793,0.164,1.120,-7.324,-219.849,-214.844

0.678,0.268,1.131,57.800,-155.090,-216.187

0.571,0.197,0.813,136.353,-67.444,-217.468

0.735,0.549,0.640,100.525,36.499,-176.514

0.669,0.679,0.680,63.599,113.647,-118.530

0.631,0.564,0.471,49.683,131.531,-47.729

0.641,0.428,0.318,10.803,144.653,-29.419

0.642,0.363,0.314,-42.480,140.625,-16.968

0.990,0.342,0.333,-80.261,132.324,-6.409

0.597,0.284,0.389,-107.178,114.563,32.837

0.298,0.119,0.472,-96.863,113.220,74.707

2.056,0.325,0.574,-69.885,126.038,85.815

0.873,0.121,0.295,-41.565,81.116,70.984

0.495,0.075,0.575,-6.653,85.266,64.026

1.033,0.358,0.686,-60.181,60.852,61.584

0.890,0.171,0.627,-60.242,42.419,49.622

1.186,0.464,0.416,-66.101,24.109,39.734

1.221,0.615,1.059,-84.595,11.536,13.123

0.204,0.571,0.324,-134.399,31.494,-30.518

0.522,0.659,0.441,-97.290,24.414,-64.026

0.630,0.636,0.520,-68.604,22.827,-78.613

0.796,0.797,0.461,-52.002,40.771,-70.679

0.748,0.816,0.435,-38.879,60.364,-49.927

0.610,0.651,0.420,-30.884,83.862,-33.691

0.631,0.563,0.496,-27.344,113.770,-14.465

0.754,0.514,0.626,-20.813,152.649,3.235

0.954,0.589,0.369,-7.446,195.007,17.395

0.962,0.579,0.583,0.366,222.351,16.235

1.010,0.735,0.459,-7.568,243.713,-2.136

0.891,0.604,0.216,-14.526,258.606,-38.879

0.897,0.241,-0.336,-36.743,251.770,-78.918

0.887,-0.361,-1.010,-33.630,197.449,-89.050

0.859,-0.481,-1.278,-8.545,97.290,-48.157

0.709,-0.121,-1.194,25.757,-27.954,21.912

0.762,0.238,-0.912,28.198,-160.278,69.580

0.526,0.526,-0.551,38.635,-269.836,94.360

-0.036,1.244,0.378,105.957,-341.614,119.751

0.185,1.410,0.958,183.838,-397.949,124.573

0.200,1.095,1.182,123.047,-397.949,33.264

0.543,0.819,1.232,104.858,-312.256,-90.698

0.713,0.420,1.248,112.854,-220.398,-170.044

0.728,0.071,1.169,107.239,-138.000,-196.106

0.723,-0.076,1.011,90.698,-66.956,-184.998

0.726,0.067,0.819,55.054,-23.499,-156.250

0.744,0.244,0.632,35.767,1.770,-134.155

0.780,0.249,0.451,25.269,9.216,-125.854

0.833,0.147,0.294,20.996,2.441,-117.310

0.896,0.071,0.233,26.550,-14.282,-97.595

0.904,0.057,0.305,40.161,-37.048,-69.519

0.885,0.085,0.454,51.086,-57.922,-41.565

0.891,0.119,0.596,53.528,-71.594,-21.118

0.861,0.137,0.727,45.715,-78.491,-7.874

0.786,0.182,0.820,32.166,-79.529,-0.122

0.716,0.245,0.874,16.968,-75.256,1.099

0.646,0.302,0.859,2.197,-65.369,-4.272

0.585,0.346,0.778,-6.958,-52.795,-15.320

0.556,0.358,0.666,-8.362,-43.396,-30.640

0.562,0.365,0.523,-3.296,-40.588,-45.410

0.561,0.367,0.382,11.169,-45.532,-55.908

0.585,0.335,0.256,32.532,-58.105,-62.622

0.628,0.260,0.181,44.800,-78.369,-65.735

0.620,0.241,0.171,49.561,-104.248,-62.744

0.547,0.137,0.155,56.885,-130.310,-55.969

0.570,0.078,0.215,35.339,-158.325,-44.312

0.572,0.048,0.242,41.443,-185.120,-30.334

0.534,0.117,0.451,40.710,-218.933,-15.747

0.483,0.062,0.687,38.574,-253.601,-13.245

0.437,0.071,1.030,18.005,-285.400,-19.653

0.298,0.314,1.401,-41.016,-317.566,-33.691

0.276,0.175,1.427,-47.913,-293.030,-70.435

0.328,-0.097,1.585,-43.884,-249.939,-98.633

0.378,-0.167,1.576,-34.485,-213.440,-82.886

0.261,-0.035,1.506,-21.240,-164.001,-48.401

0.264,0.020,1.313,0.366,-75.806,-34.302

0.392,-0.005,1.083,33.264,11.292,-31.311

0.382,-0.062,0.910,58.350,78.613,-14.587

0.333,-0.047,0.826,41.687,123.047,14.954

0.314,-0.094,0.722,64.392,151.550,42.664

0.469,-0.049,0.600,72.205,155.212,60.730

0.629,0.051,0.541,76.477,131.165,68.176

0.728,0.094,0.498,79.773,91.614,67.017

0.652,0.112,0.518,65.369,39.246,64.270

0.529,0.147,0.637,42.603,-18.311,56.702

0.383,0.206,0.770,32.288,-64.819,33.325

0.390,0.142,0.887,26.428,-93.994,2.319

0.447,0.060,0.999,20.691,-103.577,-22.766

0.473,-0.015,1.035,21.240,-94.055,-30.762

0.444,0.022,0.999,22.888,-72.510,-24.475

0.386,0.027,0.999,29.663,-53.040,-16.846

0.326,0.012,0.978,45.288,-34.668,-11.963

0.290,0.044,0.952,51.331,-19.653,-9.033

0.331,0.061,0.933,50.598,-8.057,-5.981

0.394,0.086,0.859,46.875,1.526,-3.601

0.384,0.107,0.808,38.208,7.629,-2.136

0.365,0.182,0.730,29.663,8.240,-3.174

0.348,0.263,0.668,2.747,0.793,-18.921

0.348,0.293,0.635,-43.640,-13.367,-54.871

0.324,0.173,0.653,-79.834,-36.499,-98.022

0.291,0.029,0.689,-79.895,-66.223,-125.488

0.266,-0.110,0.806,-64.209,-96.619,-132.690

0.253,-0.143,0.943,-53.528,-120.056,-124.329

0.229,-0.126,1.103,-48.218,-131.226,-108.887

0.200,-0.105,1.267,-35.034,-127.991,-90.515

0.177,-0.062,1.358,-21.179,-108.948,-72.571

0.192,-0.098,1.388,-1.526,-80.078,-60.547

0.236,-0.160,1.307,16.479,-44.617,-45.715

0.265,-0.120,1.102,21.484,-4.700,-23.560

0.263,0.090,0.828,18.188,30.457,4.028

0.215,0.181,0.604,23.010,50.049,13.306

0.170,0.232,0.458,31.921,53.040,7.385

0.156,0.249,0.429,34.729,39.734,-10.010

0.240,0.354,0.453,32.288,17.517,-33.813

0.344,0.246,0.531,17.090,-8.911,-63.538

0.366,-0.077,0.701,-1.404,-33.875,-83.862



1.367,-0.721,0.595,97.656,84.473,-99.792

1.231,-0.668,0.649,95.398,56.580,-77.148

1.105,-0.741,0.699,75.989,23.376,-68.420

1.022,-0.441,0.674,62.744,27.405,-49.622

0.792,-0.494,0.585,81.055,62.988,-49.927

0.757,-0.580,0.529,75.378,92.773,-58.228

0.747,-0.421,0.502,78.796,136.169,-30.823

0.713,-0.286,0.465,82.886,176.147,-6.592

0.826,-0.332,0.410,63.660,201.904,-7.629

1.096,-0.399,0.267,57.800,240.967,-8.362

1.145,-0.389,0.054,80.933,283.142,10.620

0.850,-0.552,-0.077,87.830,284.668,38.879

0.678,-0.563,-0.154,76.904,244.324,55.176

0.555,-0.318,-0.164,69.153,192.322,65.063

0.385,-0.166,-0.176,58.044,135.437,56.641

0.354,-0.074,-0.151,43.335,81.116,21.240

0.537,-0.105,-0.097,22.888,37.354,-26.184

0.610,-0.696,-0.140,24.109,10.864,-47.546

0.629,-0.457,-0.008,9.399,-18.738,-5.310

0.740,-0.039,0.209,-25.085,-18.311,9.644

0.905,-0.363,0.366,-21.851,29.724,-45.776

1.170,-0.351,0.373,5.310,113.525,-86.426

1.127,-0.661,0.219,31.250,186.096,-94.177

1.330,-1.519,0.139,18.921,202.209,-85.876

0.787,-0.699,-0.014,-4.456,193.420,23.132

0.782,-0.520,-0.296,5.615,207.336,70.374

0.778,-0.358,-0.367,50.537,194.519,78.857

0.778,-0.236,-0.445,46.143,182.129,75.073

0.767,-0.159,-0.516,27.222,175.537,61.218

0.781,-0.471,-0.574,19.714,163.574,36.438

0.751,-0.462,-0.635,7.385,150.146,38.208

0.758,-0.368,-0.649,10.437,140.991,55.603

0.771,-0.238,-0.622,32.288,128.662,64.819

0.843,-0.167,-0.589,48.706,116.333,62.012

0.803,-0.121,-0.517,49.072,102.051,51.758

0.777,-0.228,-0.486,49.194,96.558,40.283

0.711,-0.341,-0.462,51.880,102.783,36.926

0.677,-0.385,-0.441,57.251,119.263,44.800

0.662,-0.355,-0.426,63.782,140.381,54.749

0.644,-0.219,-0.439,64.026,161.987,57.556

0.785,-0.066,-0.531,45.898,177.979,47.119

0.681,0.027,-0.592,20.081,180.542,19.104

0.573,-0.052,-0.633,14.221,179.016,-20.264

0.782,-0.276,-0.697,20.935,177.307,-63.354

0.771,-0.418,-0.687,15.503,161.926,-95.642

0.737,-0.537,-0.603,5.981,142.517,-94.238

0.713,-0.531,-0.587,13.367,136.475,-69.214

0.618,-0.452,-0.577,-5.981,138.550,-43.274

0.993,-0.570,-0.638,-10.498,144.043,-27.649

0.917,-0.070,-0.499,-6.775,151.062,27.405

0.557,0.247,-0.453,11.597,138.733,12.634

0.339,0.120,-0.459,35.217,145.874,-82.458

0.255,0.001,-0.445,36.377,169.067,-167.969

0.201,-0.109,-0.414,41.565,199.036,-227.112

0.169,-0.177,-0.406,52.551,232.361,-261.292

0.119,-0.223,-0.403,57.190,270.020,-273.621

0.224,-0.243,-0.424,54.993,311.035,-272.644

0.342,-0.384,-0.754,108.948,397.461,-264.648

0.250,-0.288,-0.725,114.929,478.149,-223.267

-0.299,-0.106,-0.640,105.530,497.986,-180.664

-0.439,-0.016,-0.630,102.539,524.963,-173.889

0.057,-1.038,-2.401,253.235,489.868,-171.204

-0.519,0.695,-0.869,297.241,41.992,-58.533

-0.239,0.655,-0.743,43.762,-59.998,-144.897

-0.267,0.314,-1.096,49.072,0.000,-248.779

-0.360,0.163,-1.035,56.519,-44.739,-285.583

-0.232,-0.059,-1.024,60.120,-45.959,-286.682

-0.188,-0.311,-0.946,53.040,-42.236,-273.926

-0.178,-0.356,-0.942,70.435,-35.645,-259.644

-0.167,-0.349,-0.966,85.083,-27.344,-232.300

-0.149,-0.292,-0.997,96.924,-19.470,-202.087

-0.136,-0.249,-0.992,96.802,-12.329,-173.706

-0.185,-0.185,-1.030,96.252,-7.019,-152.405

-0.143,-0.177,-1.026,88.257,-1.343,-134.644

-0.121,-0.161,-1.031,85.205,2.014,-117.432

-0.120,-0.223,-1.031,77.576,3.113,-94.177

-0.129,-0.255,-1.076,67.444,3.357,-65.369

-0.114,-0.136,-1.040,48.340,0.610,-29.236

-0.100,-0.010,-1.025,18.555,-0.916,-1.892

-0.101,-0.025,-1.028,-4.272,0.244,3.723

-0.106,-0.085,-1.026,-21.240,0.732,7.385

-0.101,-0.070,-1.012,-24.109,-0.549,14.221

-0.097,-0.025,-1.008,-18.738,-1.221,19.531

-0.094,0.001,-1.005,-12.634,-0.916,18.127

-0.094,0.009,-1.011,-4.028,-0.427,11.230

-0.097,-0.035,-1.010,1.587,-0.061,3.540

-0.098,-0.038,-1.012,5.432,0.061,0.793

-0.099,-0.036,-1.017,8.545,0.183,0.366

-0.099,-0.034,-1.016,8.850,0.488,0.305

-0.098,-0.033,-1.017,8.484,0.427,0.427

-0.099,-0.032,-1.017,8.240,0.244,0.305

-0.099,-0.030,-1.016,8.240,0.183,0.366

-0.100,-0.028,-1.019,7.385,0.183,0.549

-0.101,-0.027,-1.021,5.554,-0.061,0.732

-0.100,-0.027,-1.020,2.747,-0.183,0.916

-0.100,-0.028,-1.020,-0.305,-0.183,1.160

-0.099,-0.030,-1.016,-1.892,-0.244,1.465

-0.098,-0.032,-1.015,-1.587,-0.183,1.282

-0.098,-0.034,-1.013,0.122,-0.122,1.282

-0.099,-0.032,-1.014,3.052,-0.061,1.038

-0.099,-0.030,-1.016,5.249,0.061,0.671

-0.099,-0.028,-1.016,5.859,0.122,0.549

-0.099,-0.026,-1.017,5.554,0.061,0.732

-0.100,-0.026,-1.020,4.333,-0.061,0.793

-0.100,-0.027,-1.016,1.953,-0.061,1.038

-0.099,-0.027,-1.018,1.282,-0.122,1.038

-0.099,-0.027,-1.016,0.916,-0.122,1.099

-0.098,-0.028,-1.016,1.221,-0.183,1.038

-0.098,-0.028,-1.016,2.014,-0.122,1.038

-0.099,-0.027,-1.016,2.319,0.061,0.977

-0.099,-0.027,-1.017,2.197,-0.061,1.099

-0.099,-0.026,-1.016,2.075,0.000,0.977

-0.099,-0.027,-1.015,2.075,0.061,0.977

-0.099,-0.027,-1.015,1.953,-0.244,1.038

-0.100,-0.026,-1.016,1.892,-0.061,0.977

-0.099,-0.026,-1.014,1.648,0.061,1.038

-0.099,-0.028,-1.015,1.404,-0.061,0.977

-0.099,-0.028,-1.016,1.648,-0.122,0.977

-0.099,-0.027,-1.016,1.953,-0.183,0.977




